sender,sender_type,sender_id,timestamp,meta,"",age,applies,consent,response,correctResponse,correct,duration,educational_level,ended_on,example_1,example_2,fb_attention,fb_confidence,fb_difficulty,fb_strategy_text,fb_strategy_used,gender,occupation,response_action,task_id,time_commit,time_end,time_render,time_run,time_show,time_switch,url
Welcome & Consent,html.Page,0,2025-11-07T07:42:07.594Z,"{""labjs_version"":""20.2.4"",""labjs_build"":{""flavor"":""development"",""commit"":""f5b4a49f956347addd546a832a3327688c2c0fef""},""location"":""https://labjs.felixhenninger.com/api/labjs_preview/index.html"",""userAgent"":""Mozilla/5.0 (Windows NT 10.0; Win64; x64) AppleWebKit/537.36 (KHTML, like Gecko) Chrome/141.0.0.0 Safari/537.36"",""platform"":""Win32"",""language"":""de-DE"",""locale"":""de"",""timeZone"":""Europe/Berlin"",""timezoneOffset"":-60,""screen_width"":2752,""screen_height"":1152,""scroll_width"":1195,""scroll_height"":845,""window_innerWidth"":1219,""window_innerHeight"":860,""devicePixelRatio"":1.25}",,,,true,,,,3691.9000000014903,,form submission,,,,,,,,,,,,3797.2999999970198,3797.10000000149,99.4,101.10000000149012,105.2,3797.6,{}
Questionnaire,html.Form,1,2025-11-07T07:42:14.188Z,,,26,,,,,,6593.4,bachelor,form submission,,,,,,,,male,student,,,10391.19999999553,10391,3791.8,3797.60000000149,3797.6,10398.8,
Matrix Pairs,html.Page,2_0,2025-11-07T07:42:14.837Z,,,,,,,,,641.7000000000007,,form submission,,,,,,,,,,,,11040.69999999553,11040.5,10393.3,10391.29999999702,10398.8,11050.4,
Background Cue,html.Page,2_1,2025-11-07T07:42:15.124Z,,,,,,,,,276.7000000014905,,form submission,,,,,,,,,,,,11327.19999999553,11327.10000000149,11044.6,11040.79999999702,11050.4,11330.4,
Introduction,flow.Sequence,2,2025-11-07T07:42:15.124Z,,,,,,,,,928.3000000014908,,completion,,,,,,,,,,,,11327.39999999851,11327.10000000149,10393.3,10391.29999999702,10398.8,11330.4,
Practice Information,html.Page,3,2025-11-07T07:42:15.353Z,,,,,,,,,225.89999999702013,,form submission,,,,,,,,,,,,11556.39999999851,11556.29999999702,11324.9,11327.39999999851,11330.4,11564.8,
First Example,html.Page,4_0,2025-11-07T07:42:16.259Z,,,,,,f,,,897.2000000000007,,response,,,,,,,,,,keypress(f),,12462.89999999851,12462,11559.4,11556.39999999851,11564.8,12467.7,
Inference Decision,html.Page,4_1_0_0,2025-11-07T07:42:17.268Z,,,,n,,y,n,false,1002.6999999985092,,response,attraction_gravity.t22.combined.png,attraction_gravity.t24.combined.png,,,,,,,,keypress(j),p1,13471.19999999553,13470.39999999851,12462.1,12463.10000000149,12467.7,13473.7,
Confidence Check,html.Page,4_1_0_1,2025-11-07T07:42:17.317Z,,,,n,,f,,,45.90000000148939,,response,attraction_gravity.t22.combined.png,attraction_gravity.t24.combined.png,,,,,,,,keypress(f),p1,13520.10000000149,13519.60000000149,13468.2,13471.39999999851,13473.7,13525.1,
Inference Sequence,flow.Sequence,4_1_0,2025-11-07T07:42:17.317Z,,,,n,,,,,1051.9000000014894,,completion,attraction_gravity.t22.combined.png,attraction_gravity.t24.combined.png,,,,,,,,,p1,13520.29999999702,13519.60000000149,12462.1,12463.10000000149,12467.7,13525.1,
Inference Decision,html.Page,4_1_1_0,2025-11-07T07:42:17.481Z,,,,y,,y,y,true,158.29999999850952,,response,attraction_gravity.t25.combined.png,attraction_gravity.t27.combined.png,,,,,,,,keypress(j),p2,13684.79999999702,13683.39999999851,13519.6,13520.5,13525.1,13691,
Confidence Check,html.Page,4_1_1_1,2025-11-07T07:42:17.531Z,,,,y,,f,,,43.19999999552965,,response,attraction_gravity.t25.combined.png,attraction_gravity.t27.combined.png,,,,,,,,keypress(f),p2,13734.79999999702,13734.19999999553,13685.2,13685.10000000149,13691,13737,
Inference Sequence,flow.Sequence,4_1_1,2025-11-07T07:42:17.532Z,,,,y,,,,,209.0999999955293,,completion,attraction_gravity.t25.combined.png,attraction_gravity.t27.combined.png,,,,,,,,,p2,13735,13734.19999999553,13519.6,13520.5,13525.1,13737,
Inference Decision,html.Page,4_1_2_0,2025-11-07T07:42:17.662Z,,,,n,,y,n,false,128.10000000149012,,response,attraction_size.t29.combined.png,attraction_size.t28.combined.png,,,,,,,,keypress(j),p3,13865.89999999851,13865.10000000149,13730.9,13735.19999999553,13737,13868.2,
Confidence Check,html.Page,4_1_2_1,2025-11-07T07:42:17.732Z,,,,n,,f,,,66.79999999999927,,response,attraction_size.t29.combined.png,attraction_size.t28.combined.png,,,,,,,,keypress(f),p3,13935.19999999553,13935,13862.3,13866,13868.2,13936.8,
Inference Sequence,flow.Sequence,4_1_2,2025-11-07T07:42:17.732Z,,,,n,,,,,198,,completion,attraction_size.t29.combined.png,attraction_size.t28.combined.png,,,,,,,,,p3,13935.29999999702,13935,13730.9,13735.10000000149,13737,13936.8,
Inference Block,flow.Loop,4_1,2025-11-07T07:42:17.732Z,,,,,,,,,1467.2999999999993,,completion,,,,,,,,,,,,13935.39999999851,13935,12462.1,12463,12467.7,13936.8,
Rule Reminder,html.Page,4_2,2025-11-07T07:42:17.936Z,,,,,,f,,,201.9999999970205,,response,,,,,,,,,,keypress(f),,14139.39999999851,14138.79999999702,13934.864,13935.39999999851,13936.8,14142.6,
Application Decision,html.Page,4_3_0_0,2025-11-07T07:42:18.033Z,,,,y,,y,y,true,93.39999999999964,,response,attraction_color.t35.combined.png,attraction_color.t28.combined.png,,,,,,,,keypress(j),p4,14236.39999999851,14236,14136.8,14139.60000000149,14142.6,14239.5,
Confidence Check,html.Page,4_3_0_1,2025-11-07T07:42:18.126Z,,,,y,,f,,,89.5,,response,attraction_color.t35.combined.png,attraction_color.t28.combined.png,,,,,,,,keypress(f),p4,14329.69999999553,14329,14233.8,14236.39999999851,14239.5,14337.5,
Application Sequence,flow.Sequence,4_3_0,2025-11-07T07:42:18.126Z,,,,y,,,,,186.39999999999964,,completion,attraction_color.t35.combined.png,attraction_color.t28.combined.png,,,,,,,,,p4,14329.89999999851,14329,14136.8,14139.60000000149,14142.6,14337.5,
Application Decision,html.Page,4_3_1_0,2025-11-07T07:42:18.226Z,,,,y,,y,y,true,91.39999999850988,,response,attraction_color.t27.combined.png,attraction_color.t30.combined.png,,,,,,,,keypress(j),p6,14429.60000000149,14428.89999999851,14325.5,14330,14337.5,14434.3,
Confidence Check,html.Page,4_3_1_1,2025-11-07T07:42:18.312Z,,,,y,,f,,,80.89999999553038,,response,attraction_color.t27.combined.png,attraction_color.t30.combined.png,,,,,,,,keypress(f),p6,14515.69999999553,14515.19999999553,14428.3,14429.79999999702,14434.3,14519.6,
Application Sequence,flow.Sequence,4_3_1,2025-11-07T07:42:18.312Z,,,,y,,,,,177.69999999552965,,completion,attraction_color.t27.combined.png,attraction_color.t30.combined.png,,,,,,,,,p6,14515.79999999702,14515.19999999553,14325.5,14329.89999999851,14337.5,14519.6,
Application Decision,html.Page,4_3_2_0,2025-11-07T07:42:18.401Z,,,,n,,y,n,false,84.1999999970194,,response,attraction_gravity.t30.combined.png,attraction_gravity.t31.combined.png,,,,,,,,keypress(j),p5,14604.69999999553,14603.79999999702,14514.2,14515.89999999851,14519.6,14611.4,
Confidence Check,html.Page,4_3_2_1,2025-11-07T07:42:18.497Z,,,,n,,f,,,88.60000000000036,,response,attraction_gravity.t30.combined.png,attraction_gravity.t31.combined.png,,,,,,,,keypress(f),p5,14700.60000000149,14700,14602.93,14604.79999999702,14611.4,14702.9,
Application Sequence,flow.Sequence,4_3_2,2025-11-07T07:42:18.497Z,,,,n,,,,,180.39999999999964,,completion,attraction_gravity.t30.combined.png,attraction_gravity.t31.combined.png,,,,,,,,,p5,14700.89999999851,14700,14514.2,14515.89999999851,14519.6,14702.9,
Application Block,flow.Loop,4_3,2025-11-07T07:42:18.498Z,,,,,,,,,557.3999999999996,,completion,,,,,,,,,,,,14701,14700,14136.8,14139.5,14142.6,14702.9,
Practice Sequence,flow.Sequence,4,2025-11-07T07:42:18.498Z,,,,,,,,,3135.2000000000007,,completion,,,,,,,,,,,,14701.19999999553,14700,11559.4,11556.39999999851,11564.8,14702.9,
Practice Finished,html.Page,5,2025-11-07T07:42:19.792Z,,,,,,,,,1292.29999999553,,form submission,,,,,,,,,,,,15995.19999999553,15995.19999999553,14697.1,14701.19999999553,14702.9,16005.6,
First Example,html.Page,6_0_0,2025-11-07T07:42:20.831Z,,,,,,f,,,1027.8999999999996,,response,,,,,,,,,,keypress(f),,17034.19999999553,17033.5,15999.9,15995.29999999702,16005.6,17042,
Inference Decision,html.Page,6_0_1_0_0,2025-11-07T07:42:21.186Z,,,,n,,y,n,false,347.1000000014901,,response,expansion_star_step.t1.combined.png,expansion_star_step.t4.combined.png,,,,,,,,keypress(j),0,17389.39999999851,17389.10000000149,17028.9,17034.5,17042,17394.5,
Confidence Check,html.Page,6_0_1_0_1,2025-11-07T07:42:21.228Z,,,,n,,f,,,36.600000001490116,,response,expansion_star_step.t1.combined.png,expansion_star_step.t4.combined.png,,,,,,,,keypress(f),0,17431.39999999851,17431.10000000149,17388.8,17389.39999999851,17394.5,17434.5,
Inference Sequence,flow.Sequence,6_0_1_0,2025-11-07T07:42:21.228Z,,,,n,,,,,389.1000000014901,,completion,expansion_star_step.t1.combined.png,expansion_star_step.t4.combined.png,,,,,,,,,0,17431.5,17431.10000000149,17028.9,17034.5,17042,17434.5,
Inference Decision,html.Page,6_0_1_1_0,2025-11-07T07:42:21.449Z,,,,y,,y,y,true,216.79999999701977,,response,expansion_star_step.t2.combined.png,expansion_star_step.t3.combined.png,,,,,,,,keypress(j),1,17652.10000000149,17651.29999999702,17428.8,17431.5,17434.5,17657.5,
Confidence Check,html.Page,6_0_1_1_1,2025-11-07T07:42:21.461Z,,,,y,,f,,,6.5,,response,expansion_star_step.t2.combined.png,expansion_star_step.t3.combined.png,,,,,,,,keypress(f),1,17664.19999999553,17664,17651.7,17652.29999999702,17657.5,17668.9,
Inference Sequence,flow.Sequence,6_0_1_1,2025-11-07T07:42:21.461Z,,,,y,,,,,229.5,,completion,expansion_star_step.t2.combined.png,expansion_star_step.t3.combined.png,,,,,,,,,1,17664.39999999851,17664,17428.8,17431.5,17434.5,17668.9,
Inference Decision,html.Page,6_0_1_2_0,2025-11-07T07:42:21.638Z,,,,n,,y,n,false,172.09999999999854,,response,expansion_plus_full.t1.combined.png,expansion_plus_full.t2.combined.png,,,,,,,,keypress(j),2,17841.69999999553,17841,17663.3,17664.5,17668.9,17846.4,
Confidence Check,html.Page,6_0_1_2_1,2025-11-07T07:42:21.655Z,,,,n,,f,,,11.200000001488661,,response,expansion_plus_full.t1.combined.png,expansion_plus_full.t2.combined.png,,,,,,,,keypress(f),2,17858.29999999702,17857.60000000149,17840.5,17841.79999999702,17846.4,17869,
Inference Sequence,flow.Sequence,6_0_1_2,2025-11-07T07:42:21.655Z,,,,n,,,,,188.70000000148866,,completion,expansion_plus_full.t1.combined.png,expansion_plus_full.t2.combined.png,,,,,,,,,2,17858.39999999851,17857.60000000149,17663.3,17664.5,17668.9,17869,
Inference Decision,html.Page,6_0_1_3_0,2025-11-07T07:42:21.852Z,,,,y,,y,y,true,186.10000000149012,,response,expansion_plus_full.t3.combined.png,expansion_plus_full.t4.combined.png,,,,,,,,keypress(j),3,18055.79999999702,18055.10000000149,17863.5,17858.5,17869,18057.7,
Confidence Check,html.Page,6_0_1_3_1,2025-11-07T07:42:21.904Z,,,,y,,f,,,49.40000000148939,,response,expansion_plus_full.t3.combined.png,expansion_plus_full.t4.combined.png,,,,,,,,keypress(f),3,18107.5,18107.10000000149,18052.326,18055.89999999851,18057.7,18114.7,
Inference Sequence,flow.Sequence,6_0_1_3,2025-11-07T07:42:21.904Z,,,,y,,,,,238.10000000149012,,completion,expansion_plus_full.t3.combined.png,expansion_plus_full.t4.combined.png,,,,,,,,,3,18107.69999999553,18107.10000000149,17863.5,17858.39999999851,17869,18114.7,
Inference Decision,html.Page,6_0_1_4_0,2025-11-07T07:42:22.113Z,,,,y,,y,y,true,201.19999999850916,,response,expansion_plus_full.t5.combined.png,expansion_plus_full.t6.combined.png,,,,,,,,keypress(j),4,18316.60000000149,18315.89999999851,18107.698,18107.89999999851,18114.7,18320.7,
Confidence Check,html.Page,6_0_1_4_1,2025-11-07T07:42:22.127Z,,,,y,,f,,,9.699999998509156,,response,expansion_plus_full.t5.combined.png,expansion_plus_full.t6.combined.png,,,,,,,,keypress(f),4,18330.79999999702,18330.39999999851,18314.7,18316.60000000149,18320.7,18332,
Inference Sequence,flow.Sequence,6_0_1_4,2025-11-07T07:42:22.127Z,,,,y,,,,,215.69999999850916,,completion,expansion_plus_full.t5.combined.png,expansion_plus_full.t6.combined.png,,,,,,,,,4,18330.89999999851,18330.39999999851,18107.698,18107.79999999702,18114.7,18332,
Inference Block,flow.Loop,6_0_1,2025-11-07T07:42:22.128Z,,,,,,,,,1288.3999999985099,,completion,,,,,,,,,,,,18331,18330.39999999851,17028.9,17034.39999999851,17042,18332,
Rule Reminder,html.Page,6_0_2,2025-11-07T07:42:22.374Z,,,,,,f,,false,244.60000000149012,,response,,,,,,,,,,keypress(f),,18577.10000000149,18576.60000000149,18326.2,18331.10000000149,18332,18583.4,
Application Decision,html.Page,6_0_3_0_0,2025-11-07T07:42:22.592Z,,,,y,,y,y,true,211.20000000148866,,response,expansion_star_step.t1.combined.png,expansion_star_step.t4.combined.png,,,,,,,,keypress(j),5,18795.60000000149,18794.60000000149,18577.9,18577.39999999851,18583.4,18800.7,
Confidence Check,html.Page,6_0_3_0_1,2025-11-07T07:42:22.610Z,,,,y,,f,,,11.999999995528924,,response,expansion_star_step.t1.combined.png,expansion_star_step.t4.combined.png,,,,,,,,keypress(f),5,18813,18812.69999999553,18795.1,18795.69999999553,18800.7,18823.5,
Application Sequence,flow.Sequence,6_0_3_0,2025-11-07T07:42:22.610Z,,,,y,,,,,229.2999999955282,,completion,expansion_star_step.t1.combined.png,expansion_star_step.t4.combined.png,,,,,,,,,5,18813.19999999553,18812.69999999553,18577.9,18577.39999999851,18583.4,18823.5,
Application Decision,html.Page,6_0_3_1_0,2025-11-07T07:42:22.818Z,,,,n,,y,n,false,197.10000000149012,,response,expansion_diagonal_full.t2.combined.png,expansion_diagonal_full.t4.combined.png,,,,,,,,keypress(j),9,19021.19999999553,19020.60000000149,18817.8,18813.19999999553,18823.5,19023.7,
Confidence Check,html.Page,6_0_3_1_1,2025-11-07T07:42:22.856Z,,,,n,,f,,,35.29999999999927,,response,expansion_diagonal_full.t2.combined.png,expansion_diagonal_full.t4.combined.png,,,,,,,,keypress(f),9,19059.5,19059,19017.9,19021.19999999553,19023.7,19063.6,
Application Sequence,flow.Sequence,6_0_3_1,2025-11-07T07:42:22.856Z,,,,n,,,,,235.5,,completion,expansion_diagonal_full.t2.combined.png,expansion_diagonal_full.t4.combined.png,,,,,,,,,9,19059.60000000149,19059,18817.8,18813.19999999553,18823.5,19063.6,
Application Decision,html.Page,6_0_3_2_0,2025-11-07T07:42:23.072Z,,,,y,,y,y,true,211.69999999702122,,response,expansion_star_full.t3.combined.png,expansion_star_full.t4.combined.png,,,,,,,,keypress(j),8,19275.69999999553,19275.29999999702,19057.7,19059.79999999702,19063.6,19280.8,
Confidence Check,html.Page,6_0_3_2_1,2025-11-07T07:42:23.096Z,,,,y,,f,,,18.300000001490844,,response,expansion_star_full.t3.combined.png,expansion_star_full.t4.combined.png,,,,,,,,keypress(f),8,19299.39999999851,19299.10000000149,19275.1,19275.69999999553,19280.8,19303.5,
Application Sequence,flow.Sequence,6_0_3_2,2025-11-07T07:42:23.096Z,,,,y,,,,,235.50000000149157,,completion,expansion_star_full.t3.combined.png,expansion_star_full.t4.combined.png,,,,,,,,,8,19299.5,19299.10000000149,19057.7,19059.69999999553,19063.6,19303.5,
Application Decision,html.Page,6_0_3_3_0,2025-11-07T07:42:23.317Z,,,,n,,y,n,false,215.89999999850988,,response,expansion_plus_step.t1.combined.png,expansion_plus_step.t2.combined.png,,,,,,,,keypress(j),7,19520.19999999553,19519.39999999851,19298.1,19299.5,19303.5,19532.2,
Confidence Check,html.Page,6_0_3_3_1,2025-11-07T07:42:23.334Z,,,,n,,f,,,5.299999999999272,,response,expansion_plus_step.t1.combined.png,expansion_plus_step.t2.combined.png,,,,,,,,keypress(f),7,19537.79999999702,19537.5,19526.8,19520.29999999702,19532.2,19543.8,
Application Sequence,flow.Sequence,6_0_3_3,2025-11-07T07:42:23.334Z,,,,n,,,,,234,,completion,expansion_plus_step.t1.combined.png,expansion_plus_step.t2.combined.png,,,,,,,,,7,19538,19537.5,19298.1,19299.5,19303.5,19543.8,
Application Decision,html.Page,6_0_3_4_0,2025-11-07T07:42:23.572Z,,,,n,,y,n,false,230.89999999553038,,response,expansion_diagonal_full.t1.combined.png,expansion_diagonal_full.t3.combined.png,,,,,,,,keypress(j),6,19775.29999999702,19774.69999999553,19537.9,19538.10000000149,19543.8,19778.1,
Confidence Check,html.Page,6_0_3_4_1,2025-11-07T07:42:23.587Z,,,,n,,f,,,12.299999998511339,,response,expansion_diagonal_full.t1.combined.png,expansion_diagonal_full.t3.combined.png,,,,,,,,keypress(f),6,19790.69999999553,19790.39999999851,19772.3,19775.39999999851,19778.1,19800.8,
Application Sequence,flow.Sequence,6_0_3_4,2025-11-07T07:42:23.587Z,,,,n,,,,,246.5999999985106,,completion,expansion_diagonal_full.t1.combined.png,expansion_diagonal_full.t3.combined.png,,,,,,,,,6,19790.79999999702,19790.39999999851,19537.9,19538.10000000149,19543.8,19800.8,
Application Block,flow.Loop,6_0_3,2025-11-07T07:42:23.587Z,,,,,,,,,1206.9999999985084,,completion,,,,,,,,,,,,19790.79999999702,19790.39999999851,18577.9,18577.39999999851,18583.4,19800.8,
Expansion Sequence,flow.Sequence,6_0,2025-11-07T07:42:23.587Z,,,,,,,,,3784.7999999985095,,completion,,,,,,,,,,,,19790.79999999702,19790.39999999851,15999.9,15995.29999999702,16005.6,19800.8,
First Example,html.Page,6_1_0,2025-11-07T07:42:23.882Z,,,,,,f,,,283.9999999970205,,response,,,,,,,,,,keypress(f),,20085.29999999702,20084.79999999702,19795,19790.89999999851,19800.8,20093.3,
Inference Decision,html.Page,6_1_1_0_0,2025-11-07T07:42:24.073Z,,,,y,,y,y,true,182.70000000000073,,response,attraction_color.t3.combined.png,attraction_color.t8.combined.png,,,,,,,,keypress(j),1,20276.29999999702,20276,20084.122,20085.60000000149,20093.3,20280.8,
Confidence Check,html.Page,6_1_1_0_1,2025-11-07T07:42:24.097Z,,,,y,,f,,,19.300000001490844,,response,attraction_color.t3.combined.png,attraction_color.t8.combined.png,,,,,,,,keypress(f),1,20300.29999999702,20300.10000000149,20275.2,20276.39999999851,20280.8,20303.6,
Inference Sequence,flow.Sequence,6_1_1_0,2025-11-07T07:42:24.097Z,,,,y,,,,,206.80000000149084,,completion,attraction_color.t3.combined.png,attraction_color.t8.combined.png,,,,,,,,,1,20300.39999999851,20300.10000000149,20084.122,20085.60000000149,20093.3,20303.6,
Inference Decision,html.Page,6_1_1_1_0,2025-11-07T07:42:24.353Z,,,,n,,n,n,true,252.40000000000146,,response,attraction_gravity.t1.combined.png,attraction_gravity.t2.combined.png,,,,,,,,keypress(f),2,20556.39999999851,20556,20298.2,20300.39999999851,20303.6,20560.9,
Confidence Check,html.Page,6_1_1_1_1,2025-11-07T07:42:24.370Z,,,,n,,j,,,12.299999995528196,,response,attraction_gravity.t1.combined.png,attraction_gravity.t2.combined.png,,,,,,,,keypress(j),2,20573.5,20573.19999999553,20555.4,20556.5,20560.9,20583.9,
Inference Sequence,flow.Sequence,6_1_1_1,2025-11-07T07:42:24.370Z,,,,n,,,,,269.5999999955311,,completion,attraction_gravity.t1.combined.png,attraction_gravity.t2.combined.png,,,,,,,,,2,20573.5,20573.19999999553,20298.2,20300.39999999851,20303.6,20583.9,
Inference Decision,html.Page,6_1_1_2_0,2025-11-07T07:42:24.599Z,,,,y,,n,y,false,217.7999999955282,,response,attraction_gravity.t10.combined.png,attraction_gravity.t12.combined.png,,,,,,,,keypress(f),3,20802.29999999702,20801.69999999553,20578.3,20573.5,20583.9,20806.9,
Confidence Check,html.Page,6_1_1_2_1,2025-11-07T07:42:24.612Z,,,,y,,j,,,8.200000001488661,,response,attraction_gravity.t10.combined.png,attraction_gravity.t12.combined.png,,,,,,,,keypress(j),3,20815.60000000149,20815.10000000149,20801.2,20802.39999999851,20806.9,20818.1,
Inference Sequence,flow.Sequence,6_1_1_2,2025-11-07T07:42:24.612Z,,,,y,,,,,231.20000000148866,,completion,attraction_gravity.t10.combined.png,attraction_gravity.t12.combined.png,,,,,,,,,3,20815.69999999553,20815.10000000149,20578.3,20573.5,20583.9,20818.1,
Inference Decision,html.Page,6_1_1_3_0,2025-11-07T07:42:24.826Z,,,,n,,y,n,false,211.0999999955311,,response,attraction_color.t10.combined.png,attraction_color.t2.combined.png,,,,,,,,keypress(j),4,21029.79999999702,21029.19999999553,20812.6,20815.79999999702,20818.1,21035.6,
Confidence Check,html.Page,6_1_1_3_1,2025-11-07T07:42:24.838Z,,,,n,,f,,,5.199999997021223,,response,attraction_color.t10.combined.png,attraction_color.t2.combined.png,,,,,,,,keypress(f),4,21041.29999999702,21040.79999999702,21029.7,21030,21035.6,21046.7,
Inference Sequence,flow.Sequence,6_1_1_3,2025-11-07T07:42:24.838Z,,,,n,,,,,222.69999999702122,,completion,attraction_color.t10.combined.png,attraction_color.t2.combined.png,,,,,,,,,4,21041.39999999851,21040.79999999702,20812.6,20815.79999999702,20818.1,21046.7,
Inference Block,flow.Loop,6_1_1,2025-11-07T07:42:24.838Z,,,,,,,,,947.4999999970205,,completion,,,,,,,,,,,,21041.5,21040.79999999702,20084.122,20085.5,20093.3,21046.7,
Rule Reminder,html.Page,6_1_2,2025-11-07T07:42:25.092Z,,,,,,f,,false,248.29999999999927,,response,,,,,,,,,,keypress(f),,21295.19999999553,21295,21041,21041.5,21046.7,21298.2,
Application Decision,html.Page,6_1_3_0_0,2025-11-07T07:42:25.320Z,,,,y,,y,y,true,224.19999999850916,,response,attraction_color.t13.combined.png,attraction_color.t10.combined.png,,,,,,,,keypress(j),10,21523.19999999553,21522.39999999851,21292.7,21295.29999999702,21298.2,21526.9,
Confidence Check,html.Page,6_1_3_0_1,2025-11-07T07:42:25.344Z,,,,y,,f,,,20.70000000148866,,response,attraction_color.t13.combined.png,attraction_color.t10.combined.png,,,,,,,,keypress(f),10,21547.89999999851,21547.60000000149,21521.2,21523.29999999702,21526.9,21549.6,
Application Sequence,flow.Sequence,6_1_3_0,2025-11-07T07:42:25.344Z,,,,y,,,,,249.4000000014894,,completion,attraction_color.t13.combined.png,attraction_color.t10.combined.png,,,,,,,,,10,21547.89999999851,21547.60000000149,21292.7,21295.29999999702,21298.2,21549.6,
Application Decision,html.Page,6_1_3_1_0,2025-11-07T07:42:25.590Z,,,,n,,y,n,false,243.0999999955311,,response,attraction_gravity.t10.combined.png,attraction_gravity.t15.combined.png,,,,,,,,keypress(j),8,21793.39999999851,21792.69999999553,21543.9,21547.89999999851,21549.6,21795.8,
Confidence Check,html.Page,6_1_3_1_1,2025-11-07T07:42:25.597Z,,,,n,,f,,,4.399999995530379,,response,attraction_gravity.t10.combined.png,attraction_gravity.t15.combined.png,,,,,,,,keypress(f),8,21800.39999999851,21800.19999999553,21789.7,21793.5,21795.8,21806.9,
Application Sequence,flow.Sequence,6_1_3_1,2025-11-07T07:42:25.597Z,,,,n,,,,,250.5999999955311,,completion,attraction_gravity.t10.combined.png,attraction_gravity.t15.combined.png,,,,,,,,,8,21800.5,21800.19999999553,21543.9,21547.89999999851,21549.6,21806.9,
Application Decision,html.Page,6_1_3_2_0,2025-11-07T07:42:25.846Z,,,,n,,n,n,true,241.59999999999854,,response,attraction_size.t6.combined.png,attraction_size.t4.combined.png,,,,,,,,keypress(f),9,22049.19999999553,22048.5,21801.2,21800.60000000149,21806.9,22052.9,
Confidence Check,html.Page,6_1_3_2_1,2025-11-07T07:42:25.847Z,,,,n,,j,,,NaN,,response,attraction_size.t6.combined.png,attraction_size.t4.combined.png,,,,,,,,keypress(j),9,22050.69999999553,22049.39999999851,,22049.5,,22052.9,
Application Sequence,flow.Sequence,6_1_3_2,2025-11-07T07:42:25.847Z,,,,n,,,,,242.49999999850843,,completion,attraction_size.t6.combined.png,attraction_size.t4.combined.png,,,,,,,,,9,22050.79999999702,22049.39999999851,21801.2,21800.60000000149,21806.9,22052.9,
Application Decision,html.Page,6_1_3_3_0,2025-11-07T07:42:26.105Z,,,,y,,n,y,false,255.3999999970183,,response,attraction_color.t6.combined.png,attraction_color.t20.combined.png,,,,,,,,keypress(f),7,22308.69999999553,22308.29999999702,22046.9,22050.89999999851,22052.9,22316.5,
Confidence Check,html.Page,6_1_3_3_1,2025-11-07T07:42:26.105Z,,,,y,,j,,,NaN,,response,attraction_color.t6.combined.png,attraction_color.t20.combined.png,,,,,,,,keypress(j),7,22309,22308.39999999851,,22308.69999999553,,22316.5,
Application Sequence,flow.Sequence,6_1_3_3,2025-11-07T07:42:26.105Z,,,,y,,,,,255.49999999850843,,completion,attraction_color.t6.combined.png,attraction_color.t20.combined.png,,,,,,,,,7,22309,22308.39999999851,22046.9,22050.89999999851,22052.9,22316.5,
Application Decision,html.Page,6_1_3_4_0,2025-11-07T07:42:26.368Z,,,,y,,n,y,false,254.79999999701977,,response,attraction_color.t4.combined.png,attraction_color.t9.combined.png,,,,,,,,keypress(f),6,22571.79999999702,22571.29999999702,22308.39,22309,22316.5,22579.4,
Confidence Check,html.Page,6_1_3_4_1,2025-11-07T07:42:26.384Z,,,,y,,j,,,7.599999999998545,,response,attraction_color.t4.combined.png,attraction_color.t9.combined.png,,,,,,,,keypress(j),6,22587.5,22587,22567.1,22571.89999999851,22579.4,22590.1,
Application Sequence,flow.Sequence,6_1_3_4,2025-11-07T07:42:26.384Z,,,,y,,,,,270.5,,completion,attraction_color.t4.combined.png,attraction_color.t9.combined.png,,,,,,,,,6,22587.60000000149,22587,22308.39,22309,22316.5,22590.1,
Application Block,flow.Loop,6_1_3,2025-11-07T07:42:26.384Z,,,,,,,,,1288.7999999999993,,completion,,,,,,,,,,,,22587.60000000149,22587,21292.7,21295.29999999702,21298.2,22590.1,
Attraction Sequence,flow.Sequence,6_1,2025-11-07T07:42:26.384Z,,,,,,,,,2786.2000000000007,,completion,,,,,,,,,,,,22587.60000000149,22587,19795,19790.89999999851,19800.8,22590.1,
First Example,html.Page,6_2_0,2025-11-07T07:42:26.625Z,,,,,,f,,,238.00000000149157,,response,,,,,,,,,,keypress(f),,22828.69999999553,22828.10000000149,22584.4,22587.60000000149,22590.1,22836.3,
Inference Decision,html.Page,6_2_1_0_0,2025-11-07T07:42:26.652Z,,,,y,,y,y,true,18.59999999851061,,response,occlusion_reversal.t3.combined.png,occlusion_reversal.t4.combined.png,,,,,,,,keypress(j),11,22855.10000000149,22854.89999999851,22824.1,22828.89999999851,22836.3,22864.2,
Confidence Check,html.Page,6_2_1_0_1,2025-11-07T07:42:26.777Z,,,,y,,d,,,115.69999999850916,,response,occlusion_reversal.t3.combined.png,occlusion_reversal.t4.combined.png,,,,,,,,keypress(d),11,22980.5,22979.89999999851,22858.7,22855.10000000149,22864.2,22984.6,
Inference Sequence,flow.Sequence,6_2_1_0,2025-11-07T07:42:26.777Z,,,,y,,,,,143.5999999985106,,completion,occlusion_reversal.t3.combined.png,occlusion_reversal.t4.combined.png,,,,,,,,,11,22980.79999999702,22979.89999999851,22824.1,22828.79999999702,22836.3,22984.6,
Inference Decision,html.Page,6_2_1_1_0,2025-11-07T07:42:26.915Z,,,,y,,y,y,true,133.40000000000146,,response,occlusion_reversal.t5.combined.png,occlusion_reversal.t6.combined.png,,,,,,,,keypress(j),12,23118.60000000149,23118,22978.8,22980.89999999851,22984.6,23121.7,
Confidence Check,html.Page,6_2_1_1_1,2025-11-07T07:42:26.929Z,,,,y,,f,,,9.900000001489389,,response,occlusion_reversal.t5.combined.png,occlusion_reversal.t6.combined.png,,,,,,,,keypress(f),12,23132,23131.60000000149,23115.6,23118.69999999553,23121.7,23133.2,
Inference Sequence,flow.Sequence,6_2_1_1,2025-11-07T07:42:26.929Z,,,,y,,,,,147.00000000149157,,completion,occlusion_reversal.t5.combined.png,occlusion_reversal.t6.combined.png,,,,,,,,,12,23132.10000000149,23131.60000000149,22978.8,22980.89999999851,22984.6,23133.2,
Inference Decision,html.Page,6_2_1_2_0,2025-11-07T07:42:27.165Z,,,,n,,y,n,false,234.59999999701904,,response,occlusion_transform.t7.combined.png,occlusion_transform.t8.combined.png,,,,,,,,keypress(j),13,23368,23367.79999999702,23127.2,23132.29999999702,23133.2,23372.9,
Confidence Check,html.Page,6_2_1_2_1,2025-11-07T07:42:27.182Z,,,,n,,f,,,11.999999998508429,,response,occlusion_transform.t7.combined.png,occlusion_transform.t8.combined.png,,,,,,,,keypress(f),13,23385.10000000149,23384.89999999851,23367.1,23368,23372.9,23395.9,
Inference Sequence,flow.Sequence,6_2_1_2,2025-11-07T07:42:27.182Z,,,,n,,,,,251.69999999850916,,completion,occlusion_transform.t7.combined.png,occlusion_transform.t8.combined.png,,,,,,,,,13,23385.19999999553,23384.89999999851,23127.2,23132.29999999702,23133.2,23395.9,
Inference Decision,html.Page,6_2_1_3_0,2025-11-07T07:42:27.419Z,,,,n,,y,n,false,225.70000000148866,,response,occlusion_transform.t2.combined.png,occlusion_transform.t13.combined.png,,,,,,,,keypress(j),14,23622.19999999553,23621.60000000149,23390.1,23385.19999999553,23395.9,23624.7,
Confidence Check,html.Page,6_2_1_3_1,2025-11-07T07:42:27.443Z,,,,n,,f,,,21.299999999999272,,response,occlusion_transform.t2.combined.png,occlusion_transform.t13.combined.png,,,,,,,,keypress(f),14,23646.39999999851,23646,23618.892,23622.39999999851,23624.7,23658.6,
Inference Sequence,flow.Sequence,6_2_1_3,2025-11-07T07:42:27.443Z,,,,n,,,,,250.09999999999854,,completion,occlusion_transform.t2.combined.png,occlusion_transform.t13.combined.png,,,,,,,,,14,23646.69999999553,23646,23390.1,23385.19999999553,23395.9,23658.6,
Inference Decision,html.Page,6_2_1_4_0,2025-11-07T07:42:27.670Z,,,,n,,y,n,false,214.50000000149157,,response,occlusion_reversal.t7.combined.png,occlusion_reversal.t8.combined.png,,,,,,,,keypress(j),15,23873.60000000149,23873.10000000149,23654.1,23646.69999999553,23658.6,23876.3,
Confidence Check,html.Page,6_2_1_4_1,2025-11-07T07:42:27.695Z,,,,n,,f,,,21.89999999553038,,response,occlusion_reversal.t7.combined.png,occlusion_reversal.t8.combined.png,,,,,,,,keypress(f),15,23898.79999999702,23898.19999999553,23870.1,23873.79999999702,23876.3,23904.8,
Inference Sequence,flow.Sequence,6_2_1_4,2025-11-07T07:42:27.696Z,,,,n,,,,,239.5999999955311,,completion,occlusion_reversal.t7.combined.png,occlusion_reversal.t8.combined.png,,,,,,,,,15,23899.79999999702,23898.19999999553,23654.1,23646.69999999553,23658.6,23904.8,
Inference Block,flow.Loop,6_2_1,2025-11-07T07:42:27.696Z,,,,,,,,,1061.8999999955304,,completion,,,,,,,,,,,,23900,23898.19999999553,22824.1,22828.79999999702,22836.3,23904.8,
Rule Reminder,html.Page,6_2_2,2025-11-07T07:42:27.960Z,,,,,,f,,false,257.5999999985106,,response,,,,,,,,,,keypress(f),,24163,24162.39999999851,23898.9,23900.10000000149,23904.8,24167.7,
Application Decision,html.Page,6_2_3_0_0,2025-11-07T07:42:28.215Z,,,,y,,y,y,true,250.09999999701904,,response,occlusion_reversal.t13.combined.png,occlusion_reversal.t14.combined.png,,,,,,,,keypress(j),20,24418.29999999702,24417.79999999702,24161.9,24163.19999999553,24167.7,24424.9,
Confidence Check,html.Page,6_2_3_0_1,2025-11-07T07:42:28.236Z,,,,y,,f,,,14.700000001488661,,response,occlusion_reversal.t13.combined.png,occlusion_reversal.t14.combined.png,,,,,,,,keypress(f),20,24440,24439.60000000149,24417.69,24418.39999999851,24424.9,24447.7,
Application Sequence,flow.Sequence,6_2_3_0,2025-11-07T07:42:28.237Z,,,,y,,,,,271.9000000014894,,completion,occlusion_reversal.t13.combined.png,occlusion_reversal.t14.combined.png,,,,,,,,,20,24440.10000000149,24439.60000000149,24161.9,24163.19999999553,24167.7,24447.7,
Application Decision,html.Page,6_2_3_1_0,2025-11-07T07:42:28.480Z,,,,y,,y,y,true,235.19999999850916,,response,occlusion_reversal.t11.combined.png,occlusion_reversal.t12.combined.png,,,,,,,,keypress(j),18,24683.29999999702,24682.89999999851,24442,24440.10000000149,24447.7,24687.5,
Confidence Check,html.Page,6_2_3_1_1,2025-11-07T07:42:28.497Z,,,,y,,f,,,12.799999997019768,,response,occlusion_reversal.t11.combined.png,occlusion_reversal.t12.combined.png,,,,,,,,keypress(f),18,24700.60000000149,24700.29999999702,24682.1,24683.5,24687.5,24710.6,
Application Sequence,flow.Sequence,6_2_3_1,2025-11-07T07:42:28.497Z,,,,y,,,,,252.59999999701904,,completion,occlusion_reversal.t11.combined.png,occlusion_reversal.t12.combined.png,,,,,,,,,18,24700.79999999702,24700.29999999702,24442,24440.10000000149,24447.7,24710.6,
Application Decision,html.Page,6_2_3_2_0,2025-11-07T07:42:28.778Z,,,,n,,n,n,true,270.5999999955311,,response,occlusion_transform.t15.combined.png,occlusion_transform.t5.combined.png,,,,,,,,keypress(f),19,24981.89999999851,24981.19999999553,24704.9,24700.79999999702,24710.6,24985,
Confidence Check,html.Page,6_2_3_2_1,2025-11-07T07:42:28.780Z,,,,n,,j,,,NaN,,response,occlusion_transform.t15.combined.png,occlusion_transform.t5.combined.png,,,,,,,,keypress(j),19,24983.19999999553,24981.5,,24982.19999999553,,24985,
Application Sequence,flow.Sequence,6_2_3_2,2025-11-07T07:42:28.780Z,,,,n,,,,,270.90000000000146,,completion,occlusion_transform.t15.combined.png,occlusion_transform.t5.combined.png,,,,,,,,,19,24983.39999999851,24981.5,24704.9,24700.79999999702,24710.6,24985,
Application Decision,html.Page,6_2_3_3_0,2025-11-07T07:42:29.010Z,,,,n,,y,n,false,227.69999999552965,,response,occlusion_transform.t1.combined.png,occlusion_transform.t3.combined.png,,,,,,,,keypress(j),17,25213.29999999702,25212.69999999553,24978.9,24983.60000000149,24985,25219.1,
Confidence Check,html.Page,6_2_3_3_1,2025-11-07T07:42:29.056Z,,,,n,,f,,,40.00000000149157,,response,occlusion_transform.t1.combined.png,occlusion_transform.t3.combined.png,,,,,,,,keypress(f),17,25259.69999999553,25259.10000000149,25213.3,25213.39999999851,25219.1,25264.8,
Application Sequence,flow.Sequence,6_2_3_3,2025-11-07T07:42:29.056Z,,,,n,,,,,274.1000000014901,,completion,occlusion_transform.t1.combined.png,occlusion_transform.t3.combined.png,,,,,,,,,17,25259.89999999851,25259.10000000149,24978.9,24983.5,24985,25264.8,
Application Decision,html.Page,6_2_3_4_0,2025-11-07T07:42:29.280Z,,,,y,,y,y,true,217.70000000000073,,response,occlusion_reversal.t9.combined.png,occlusion_reversal.t10.combined.png,,,,,,,,keypress(j),16,25483.39999999851,25482.5,25259,25260,25264.8,25493.3,
Confidence Check,html.Page,6_2_3_4_1,2025-11-07T07:42:29.312Z,,,,y,,f,,,21.89999999553038,,response,occlusion_reversal.t9.combined.png,occlusion_reversal.t10.combined.png,,,,,,,,keypress(f),16,25515.79999999702,25515.19999999553,25482.2,25483.60000000149,25493.3,25522,
Application Sequence,flow.Sequence,6_2_3_4,2025-11-07T07:42:29.312Z,,,,y,,,,,250.39999999553038,,completion,occlusion_reversal.t9.combined.png,occlusion_reversal.t10.combined.png,,,,,,,,,16,25516,25515.19999999553,25259,25260,25264.8,25522,
Application Block,flow.Loop,6_2_3,2025-11-07T07:42:29.313Z,,,,,,,,,1347.499999995529,,completion,,,,,,,,,,,,25516.10000000149,25515.19999999553,24161.9,24163.10000000149,24167.7,25522,
Occlusion Sequence,flow.Sequence,6_2,2025-11-07T07:42:29.313Z,,,,,,,,,2925.099999995531,,completion,,,,,,,,,,,,25516.19999999553,25515.19999999553,22584.4,22587.60000000149,22590.1,25522,
First Example,html.Page,6_3_0,2025-11-07T07:42:29.621Z,,,,,,f,,,302.19999999552965,,response,,,,,,,,,,keypress(f),,25824.89999999851,25824.19999999553,25516.5,25516.29999999702,25522,25830.9,
Inference Decision,html.Page,6_3_1_0_0,2025-11-07T07:42:29.820Z,,,,y,,y,y,true,191.49999999850843,,response,arithmetic_majority_recolor.t5.combined.png,arithmetic_majority_recolor.t8.combined.png,,,,,,,,keypress(j),30,26023.10000000149,26022.39999999851,25825,25825.10000000149,25830.9,26031,
Confidence Check,html.Page,6_3_1_0_1,2025-11-07T07:42:29.844Z,,,,y,,f,,,15.899999998509884,,response,arithmetic_majority_recolor.t5.combined.png,arithmetic_majority_recolor.t8.combined.png,,,,,,,,keypress(f),30,26047.39999999851,26046.89999999851,26019.1,26023.29999999702,26031,26053.4,
Inference Sequence,flow.Sequence,6_3_1_0,2025-11-07T07:42:29.844Z,,,,y,,,,,215.99999999850843,,completion,arithmetic_majority_recolor.t5.combined.png,arithmetic_majority_recolor.t8.combined.png,,,,,,,,,30,26047.5,26046.89999999851,25825,25825.10000000149,25830.9,26053.4,
Inference Decision,html.Page,6_3_1_1_0,2025-11-07T07:42:30.072Z,,,,n,,y,n,false,220.8999999970183,,response,arithmetic_parity_recolor.t3.combined.png,arithmetic_parity_recolor.t8.combined.png,,,,,,,,keypress(j),31,26275,26274.29999999702,26047.8,26047.60000000149,26053.4,26284.2,
Confidence Check,html.Page,6_3_1_1_1,2025-11-07T07:42:30.107Z,,,,n,,f,,,25.90000000148939,,response,arithmetic_parity_recolor.t3.combined.png,arithmetic_parity_recolor.t8.combined.png,,,,,,,,keypress(f),31,26310.79999999702,26310.10000000149,26270.8,26275.19999999553,26284.2,26316.4,
Inference Sequence,flow.Sequence,6_3_1_1,2025-11-07T07:42:30.107Z,,,,n,,,,,256.70000000148866,,completion,arithmetic_parity_recolor.t3.combined.png,arithmetic_parity_recolor.t8.combined.png,,,,,,,,,31,26311,26310.10000000149,26047.8,26047.60000000149,26053.4,26316.4,
Inference Decision,html.Page,6_3_1_2_0,2025-11-07T07:42:30.351Z,,,,y,,y,y,true,238.09999999999854,,response,arithmetic_parity_recolor.t2.combined.png,arithmetic_parity_recolor.t4.combined.png,,,,,,,,keypress(j),32,26554.79999999702,26554.5,26310.6,26311.10000000149,26316.4,26556.8,
Confidence Check,html.Page,6_3_1_2_1,2025-11-07T07:42:30.368Z,,,,y,,f,,,14.39999999553038,,response,arithmetic_parity_recolor.t2.combined.png,arithmetic_parity_recolor.t4.combined.png,,,,,,,,keypress(f),32,26571.39999999851,26571.19999999553,26550.7,26554.79999999702,26556.8,26579.3,
Inference Sequence,flow.Sequence,6_3_1_2,2025-11-07T07:42:30.368Z,,,,y,,,,,254.7999999955282,,completion,arithmetic_parity_recolor.t2.combined.png,arithmetic_parity_recolor.t4.combined.png,,,,,,,,,32,26571.5,26571.19999999553,26310.6,26311.10000000149,26316.4,26579.3,
Inference Decision,html.Page,6_3_1_3_0,2025-11-07T07:42:30.620Z,,,,y,,n,y,false,242.80000000149084,,response,arithmetic_parity_recolor.t5.combined.png,arithmetic_parity_recolor.t9.combined.png,,,,,,,,keypress(f),33,26823.10000000149,26822.10000000149,26573.6,26571.5,26579.3,26825.2,
Confidence Check,html.Page,6_3_1_3_1,2025-11-07T07:42:30.621Z,,,,y,,j,,,NaN,,response,arithmetic_parity_recolor.t5.combined.png,arithmetic_parity_recolor.t9.combined.png,,,,,,,,keypress(j),33,26824,26822.5,,26823.10000000149,,26825.2,
Inference Sequence,flow.Sequence,6_3_1_3,2025-11-07T07:42:30.621Z,,,,y,,,,,243.20000000000073,,completion,arithmetic_parity_recolor.t5.combined.png,arithmetic_parity_recolor.t9.combined.png,,,,,,,,,33,26824.19999999553,26822.5,26573.6,26571.5,26579.3,26825.2,
Inference Decision,html.Page,6_3_1_4_0,2025-11-07T07:42:30.888Z,,,,n,,n,n,true,265.7999999999993,,response,arithmetic_inversion_recolor.t7.combined.png,arithmetic_inversion_recolor.t8.combined.png,,,,,,,,keypress(f),34,27091.69999999553,27091,26819.4,26824.29999999702,26825.2,27094.1,
Confidence Check,html.Page,6_3_1_4_1,2025-11-07T07:42:30.896Z,,,,n,,j,,,5.400000000001455,,response,arithmetic_inversion_recolor.t7.combined.png,arithmetic_inversion_recolor.t8.combined.png,,,,,,,,keypress(j),34,27099.79999999702,27099.5,27088.2,27091.89999999851,27094.1,27105.1,
Inference Sequence,flow.Sequence,6_3_1_4,2025-11-07T07:42:30.896Z,,,,n,,,,,274.2999999999993,,completion,arithmetic_inversion_recolor.t7.combined.png,arithmetic_inversion_recolor.t8.combined.png,,,,,,,,,34,27099.89999999851,27099.5,26819.4,26824.29999999702,26825.2,27105.1,
Inference Block,flow.Loop,6_3_1,2025-11-07T07:42:30.896Z,,,,,,,,,1268.5999999999985,,completion,,,,,,,,,,,,27100,27099.5,25825,25825.10000000149,25830.9,27105.1,
Rule Reminder,html.Page,6_3_2,2025-11-07T07:42:31.157Z,,,,,,f,,false,255.00000000149157,,response,,,,,,,,,,keypress(f),,27360.29999999702,27360.10000000149,27099.4,27100,27105.1,27362.5,
Application Decision,html.Page,6_3_3_0_0,2025-11-07T07:42:31.173Z,,,,n,,y,n,false,13.5,,response,arithmetic_minority_recolor.t1.combined.png,arithmetic_minority_recolor.t2.combined.png,,,,,,,,keypress(j),35,27376.19999999553,27376,27356.7,27360.29999999702,27362.5,27379.4,
Confidence Check,html.Page,6_3_3_0_1,2025-11-07T07:42:31.288Z,,,,n,,d,,,111.2999999955282,,response,arithmetic_minority_recolor.t1.combined.png,arithmetic_minority_recolor.t2.combined.png,,,,,,,,keypress(d),35,27491.29999999702,27490.69999999553,27373.8,27376.19999999553,27379.4,27494.1,
Application Sequence,flow.Sequence,6_3_3_0,2025-11-07T07:42:31.288Z,,,,n,,,,,128.19999999552965,,completion,arithmetic_minority_recolor.t1.combined.png,arithmetic_minority_recolor.t2.combined.png,,,,,,,,,35,27491.5,27490.69999999553,27356.7,27360.29999999702,27362.5,27494.1,
Application Decision,html.Page,6_3_3_1_0,2025-11-07T07:42:31.426Z,,,,y,,n,y,false,135.40000000000146,,response,arithmetic_majority_recolor.t6.combined.png,arithmetic_majority_recolor.t9.combined.png,,,,,,,,keypress(f),38,27629.89999999851,27629.5,27488.2,27491.60000000149,27494.1,27637.5,
Confidence Check,html.Page,6_3_3_1_1,2025-11-07T07:42:31.443Z,,,,y,,j,,,8.399999998509884,,response,arithmetic_majority_recolor.t6.combined.png,arithmetic_majority_recolor.t9.combined.png,,,,,,,,keypress(j),38,27646.19999999553,27645.89999999851,27625.2,27629.89999999851,27637.5,27648.1,
Application Sequence,flow.Sequence,6_3_3_1,2025-11-07T07:42:31.443Z,,,,y,,,,,151.79999999851134,,completion,arithmetic_majority_recolor.t6.combined.png,arithmetic_majority_recolor.t9.combined.png,,,,,,,,,38,27646.19999999553,27645.89999999851,27488.2,27491.60000000149,27494.1,27648.1,
Application Decision,html.Page,6_3_3_2_0,2025-11-07T07:42:31.690Z,,,,n,,y,n,false,245.0999999955311,,response,arithmetic_inversion_recolor.t1.combined.png,arithmetic_inversion_recolor.t2.combined.png,,,,,,,,keypress(j),39,27894,27893.19999999553,27642.3,27646.19999999553,27648.1,27899.7,
Confidence Check,html.Page,6_3_3_2_1,2025-11-07T07:42:31.704Z,,,,n,,f,,,7.299999999999272,,response,arithmetic_inversion_recolor.t1.combined.png,arithmetic_inversion_recolor.t2.combined.png,,,,,,,,keypress(f),39,27907.39999999851,27907,27893.8,27894.10000000149,27899.7,27911,
Application Sequence,flow.Sequence,6_3_3_2,2025-11-07T07:42:31.704Z,,,,n,,,,,258.90000000000146,,completion,arithmetic_inversion_recolor.t1.combined.png,arithmetic_inversion_recolor.t2.combined.png,,,,,,,,,39,27907.5,27907,27642.3,27646.19999999553,27648.1,27911,
Application Decision,html.Page,6_3_3_3_0,2025-11-07T07:42:31.951Z,,,,y,,y,y,true,242.19999999552965,,response,arithmetic_majority_recolor.t1.combined.png,arithmetic_majority_recolor.t4.combined.png,,,,,,,,keypress(j),37,28154,28153.19999999553,27905.4,27907.5,27911,28157.1,
Confidence Check,html.Page,6_3_3_3_1,2025-11-07T07:42:31.975Z,,,,y,,f,,,20.900000000001455,,response,arithmetic_majority_recolor.t1.combined.png,arithmetic_majority_recolor.t4.combined.png,,,,,,,,keypress(f),37,28178.29999999702,28178,28151,28154.19999999553,28157.1,28179.9,
Application Sequence,flow.Sequence,6_3_3_3,2025-11-07T07:42:31.975Z,,,,y,,,,,267,,completion,arithmetic_majority_recolor.t1.combined.png,arithmetic_majority_recolor.t4.combined.png,,,,,,,,,37,28178.39999999851,28178,27905.4,27907.5,27911,28179.9,
Application Decision,html.Page,6_3_3_4_0,2025-11-07T07:42:32.232Z,,,,y,,y,y,true,254.49999999850843,,response,arithmetic_majority_recolor.t11.combined.png,arithmetic_majority_recolor.t12.combined.png,,,,,,,,keypress(j),36,28435.10000000149,28434.39999999851,28174,28178.39999999851,28179.9,28437.1,
Confidence Check,html.Page,6_3_3_4_1,2025-11-07T07:42:32.256Z,,,,y,,f,,,21.699999997021223,,response,arithmetic_majority_recolor.t11.combined.png,arithmetic_majority_recolor.t12.combined.png,,,,,,,,keypress(f),36,28459.29999999702,28458.79999999702,28431.1,28435.19999999553,28437.1,28465.7,
Application Sequence,flow.Sequence,6_3_3_4,2025-11-07T07:42:32.256Z,,,,y,,,,,278.8999999970183,,completion,arithmetic_majority_recolor.t11.combined.png,arithmetic_majority_recolor.t12.combined.png,,,,,,,,,36,28459.5,28458.79999999702,28174,28178.39999999851,28179.9,28465.7,
Application Block,flow.Loop,6_3_3,2025-11-07T07:42:32.256Z,,,,,,,,,1096.2999999970198,,completion,,,,,,,,,,,,28459.5,28458.79999999702,27356.7,27360.29999999702,27362.5,28465.7,
Arithmetic Sequence,flow.Sequence,6_3,2025-11-07T07:42:32.256Z,,,,,,,,,2936.7999999970198,,completion,,,,,,,,,,,,28459.5,28458.79999999702,25516.5,25516.29999999702,25522,28465.7,
Experiment,flow.Sequence,6,2025-11-07T07:42:32.256Z,,,,,,,,,12453.19999999702,,completion,,,,,,,,,,,,28459.69999999553,28458.79999999702,15999.9,15995.29999999702,16005.6,28465.7,
Feedback,html.Form,7,2025-11-07T07:42:41.816Z,,,,,,,,,9553.69999999851,,form submission,,,0,1,5,random button pressing,1,,,,,38019.5,38019.39999999851,28459.7,28459.69999999553,28465.7,38021.7,
Thanks,html.Form,8,2025-11-07T07:42:42.829Z,,,,,,,,,1011.0999999970227,,form submission,,,,,,,,,,,,39032.89999999851,39032.79999999702,38016,38019.60000000149,38021.7,39039.6,
root,flow.Sequence,,2025-11-07T07:42:42.830Z,,,,,,,,,38927.59999999702,,completion,,,,,,,,,,,,39033.10000000149,39032.79999999702,99.4,100.89999999850988,105.2,39039.6,
